File: test_ref_athena.nor
# XDI/1.0 Demeter/0.9.26
# Demeter.output_filetype: multicolumn normalized mu(E)
# Element.symbol: Fe
# Element.edge: K
# Column.1: energy eV
# Column.2: Fe_foilCal_007_Mar_17.avg
# Column.3: Pyrite_NMNH_recal_2_15_tr.avg
# Column.4: VIVIANITE_006_XANES_tr.avg
# Column.5: STRENGITE_XTL_007_XANES_tr.avg
# Column.6: Fe_SIDERITE_5_13_tr_cl.avg
# Column.7: SIDERITE_11_cl.avg
# Column.8: Fe_Foil_July17_1sc_tr_cl.avg
# Column.9: SteelNP_030_Jan18_1sc_cl
# Column.10: Fepowder_BN_July17_2sc_fl_cl.avg
#------------------------
#  "energy  Fe_foilCal_007_Mar_17.avg  Pyrite_NMNH_recal_2_15_tr.avg  VIVIANITE_006_XANES_tr.avg  STRENGITE_XTL_007_XANES_tr.avg  Fe_SIDERITE_5_13_tr_cl.avg  SIDERITE_11_cl.avg  Fe_Foil_July17_1sc_tr_cl.avg  SteelNP_030_Jan18_1sc_cl  Fepowder_BN_July17_2sc_fl
  7100       0.00375018   0.0013626   0.00223436   0.00169987   0.0012326   0.00224111   0.0035985   0.00460469   0.0065537
  7100.5       0.00221806   0.00138402   0.00194435   0.00208293   0.0016008   0.00247046   0.00381659   0.00518925   0.00720304
  7101       0.00137982   0.000252304   0.00207337   0.00219983   0.00193077   0.00288705   0.00420325   0.00553642   0.00790696
  7101.5      -0.000229627   0.000249122   0.00245384   0.00257748   0.00220742   0.00324336   0.00462553   0.00575366   0.00835093
  7102       0.000630246   0.000798318   0.00323419   0.00252826   0.00265151   0.00359562   0.00502149   0.00649057   0.0091984
  7102.5       0.00111288   0.000953696   0.00303681   0.0026646   0.0030193   0.0039233   0.00536306   0.00717836   0.00975219
  7103      -0.00117268   0.00144604   0.00354658   0.00292979   0.00319918   0.00431095   0.00586442   0.00768258   0.0104792
  7103.5      -0.000777833   0.00212734   0.00384368   0.00302842   0.00368334   0.00464491   0.00636683   0.00812448   0.0113837
  7104      -0.000695435   0.00269038   0.00387884   0.00319665   0.00418509   0.00506471   0.00692799   0.00916568   0.0125121
  7104.5      -0.000227435   0.00335039   0.00418138   0.00336185   0.00440353   0.00572552   0.00763343   0.0101166   0.0139564
  7105      -0.00270632   0.00374206   0.00471523   0.00381023   0.00498957   0.0065646   0.00842904   0.0107366   0.0149842
  7105.5      -0.00127901   0.0043827   0.00518536   0.00413634   0.00570973   0.00733212   0.00921903   0.0120926   0.0165654
  7106       0.00048269   0.00485947   0.00563437   0.00433485   0.00636854   0.00769599   0.0101166   0.0130485   0.0184617
  7106.5       0.00348271   0.00597841   0.00609511   0.00474404   0.00695513   0.00842941   0.0113363   0.0139656   0.0200939
  7107       0.00439692   0.00685727   0.00676406   0.00519728   0.00782413   0.00921962   0.0126443   0.0162697   0.0223018
  7107.5       0.00545534   0.00781544   0.00728223   0.00541205   0.0086237   0.00999516   0.0142593   0.0183998   0.0247868
  7108       0.00704567   0.00885961   0.0075702   0.00572716   0.00966912   0.0111394   0.016215   0.020023   0.028132
  7108.5       0.0131086   0.0103432   0.00856544   0.00632004   0.01088   0.0122797   0.018669   0.022915   0.0322404
  7109       0.0183125   0.0113011   0.00945299   0.00701357   0.012089   0.013424   0.0217583   0.0267412   0.0374286
  7109.5       0.0260599   0.0130085   0.0104259   0.00755293   0.0135789   0.0148988   0.0259029   0.0318079   0.0445104
  7110       0.0379006   0.0158496   0.0115235   0.00813315   0.0157089   0.0168958   0.0320224   0.0392033   0.0542412
  7110.5       0.0613355   0.0193252   0.0129348   0.00898936   0.0191153   0.0194681   0.0415913   0.0509458   0.0700767
  7111       0.099046   0.0241646   0.015057   0.00966765   0.0240259   0.0234076   0.0601756   0.0710281   0.0993822
  7111.5       0.162815       0.0319859   0.0194634   0.0109315   0.0299734   0.030333   0.0945812   0.11051       0.151637
  7112       0.236661       0.0472407   0.0253914   0.0130546   0.0350948   0.0383237   0.149958       0.176403       0.225831
  7112.5       0.30815       0.0723763   0.0298358   0.0158417   0.0387228   0.0423062   0.204705       0.236356       0.29504
  7113       0.367823       0.0981269   0.0314224   0.0215636   0.0409484   0.0425056   0.244912       0.274292       0.342345
  7113.5       0.406103       0.116934       0.0340952   0.0319583   0.0428051   0.0427684   0.274881       0.307265       0.375601
  7114       0.440675       0.121409       0.0372095   0.0436244   0.0441678   0.0452372   0.300394       0.337996       0.404112
  7114.5       0.469489       0.121713       0.0396419   0.0483587   0.0454686   0.0480156   0.323709       0.367524       0.429591
  7115       0.496041       0.122167       0.0401448   0.0491949   0.0475306   0.0491208   0.343091       0.391054       0.449205
  7115.5       0.514781       0.118671       0.0404773   0.0463462   0.051437   0.0513828   0.356619       0.408524       0.464381
  7116       0.525561       0.118651       0.040315   0.0376806   0.0576944   0.0564104   0.365018       0.419414       0.473163
  7116.5       0.535929       0.13274       0.0418443   0.0306788   0.0671866   0.0651265   0.369829       0.427585       0.478295
  7117       0.542476       0.16754       0.0463698   0.0286984   0.0845779   0.0791967   0.374389       0.432824       0.484378
  7117.5       0.556033       0.229951       0.0543897   0.0292281   0.109223       0.101718       0.382699       0.43953       0.493993
  7118       0.573866       0.339473       0.0664838   0.0316781   0.144482       0.135952       0.400751       0.451543       0.513613
  7118.5       0.60602       0.463739       0.0850939   0.0347903   0.18898       0.178995       0.42874       0.471785       0.541328
  7119       0.63898       0.552766       0.114378       0.0383089   0.240699       0.228301       0.462746       0.501048       0.574797
  7119.5       0.68086       0.62309       0.157126       0.043486   0.298392       0.281282       0.499565       0.532217       0.610574
  7120       0.717917       0.695916       0.214054       0.048762   0.365756       0.338117       0.537115       0.565823       0.645221
  7120.5       0.752954       0.754393       0.285804       0.0559156   0.440992       0.405136       0.576501       0.59921       0.681721
  7121       0.785062       0.784955       0.374099       0.0672369   0.533779       0.489792       0.617391       0.632372       0.718981
  7121.5       0.81822       0.791931       0.475102       0.0838404   0.644832       0.599954       0.657196       0.665558       0.750924
  7122       0.844575       0.7877       0.576096       0.108033       0.778724       0.732375       0.693885       0.696907       0.78057
  7122.5       0.868798       0.786997       0.662213       0.141521       0.928801       0.891066       0.725287       0.727033       0.807696
  7123       0.886061       0.795968       0.732488       0.186797        1.08512        1.06984       0.753203       0.753996       0.827143
  7123.5       0.903429       0.808414       0.80252       0.243463        1.2435        1.24708       0.778249       0.777191       0.846878
  7124       0.913335       0.81973       0.887071       0.309162        1.37365        1.38881       0.800147       0.802482       0.864381
  7124.5       0.925248       0.832476       0.991406       0.379976        1.47332        1.48727       0.819812       0.827187       0.878251
  7125       0.932866       0.847911        1.10468       0.44831        1.53781        1.54256       0.837858       0.850212       0.894059
  7125.5       0.942741       0.863572        1.21388       0.513938        1.56532        1.56524       0.854592       0.872352       0.90706
  7126       0.949388       0.876029        1.31098       0.579472        1.56534        1.55951       0.871259       0.895716       0.91772
  7126.5       0.954748       0.885282        1.39764       0.64917        1.54705        1.53732       0.887468       0.912595       0.931068
  7127       0.961332       0.896394        1.46493       0.727018        1.51138        1.5048       0.904771       0.93155       0.943618
  7127.5       0.968636       0.909697        1.49511       0.814839        1.46395        1.45924       0.922635       0.950028       0.95404
  7128       0.974384       0.921876        1.47896       0.909466        1.40713        1.39805       0.94219       0.962442       0.966055
  7128.5       0.984991       0.930735        1.43226        1.00903        1.34181        1.3281       0.963949       0.975605       0.983079
  7129       0.9924       0.940476        1.38019        1.1089        1.28069        1.26561       0.98597       0.990529        1.00054
  7129.5        1.00059       0.951831        1.34202        1.20385        1.22396        1.21766        1.00887        1.00148        1.01538
  7130        1.00997       0.964758        1.31995        1.28749        1.17457        1.18163        1.02982        1.01151        1.03121
  7130.5        1.01863       0.978424        1.30967        1.35468        1.13537        1.15104        1.04804        1.02334        1.04333
  7131        1.02358       0.991977        1.30496        1.40152        1.10487        1.12613        1.06139        1.02705        1.05055
  7131.5        1.02814        1.00568        1.29975        1.42915        1.08489        1.10967        1.06858        1.0315        1.05552
  7132        1.03156        1.01964        1.28838        1.44057        1.07868        1.10674        1.06722        1.03019        1.05157
  7132.5        1.02917        1.03154        1.26838        1.44073        1.0845        1.11803        1.05937        1.02639        1.04533
  7133        1.02422        1.04232        1.24195        1.43391        1.10186        1.14206        1.04621        1.01846        1.03328
  7133.5        1.0194        1.05329        1.21243        1.42343        1.12908        1.17597        1.03007        1.01321        1.02179
  7134        1.01404        1.06417        1.1823        1.41128        1.16076        1.21248        1.01359        1.00601        1.00845
  7134.5        1.00496        1.0751        1.15587        1.40022        1.19222        1.24538       0.997791       0.999388       0.99679
  7135       0.999411        1.08348        1.13587        1.39148        1.22045        1.2703       0.983666       0.996031       0.988514
  7135.5       0.994385        1.09108        1.12358        1.38588        1.24275        1.2863       0.972244       0.990177       0.979142
  7136       0.992483        1.0956        1.11728        1.38299        1.25839        1.29647       0.963273       0.986876       0.971299
  7136.5       0.98893        1.09935        1.11452        1.38233        1.26741        1.30126       0.957221       0.980027       0.966926
  7137       0.98637        1.10144        1.11489        1.38196        1.26885        1.29704       0.953633       0.977856       0.965586
  7137.5       0.98638        1.10354        1.11636        1.38031        1.26405        1.28502       0.952266       0.977027       0.964049
  7138       0.986746        1.10383        1.11829        1.37664        1.25157        1.267       0.953234       0.974955       0.96421
  7138.5       0.989066        1.10396        1.11746        1.36914        1.23256        1.2444       0.956102       0.973058       0.966809
  7139       0.990226        1.10322        1.11408        1.35753        1.20735        1.21581       0.960389       0.973319       0.971396